Folder: CME_502_Final_Project/CME502_Project_Gauer

Note: CME502_Project_Gauer/README.md
DSC Data Analysis for PLA (Polylactic Acid) Polymer

This repository contains a Python script (dsc.py) that performs data analysis on Differential Scanning Calorimetry (DSC) data from Perkin-Elmer Pyris Diamond DSC instrument for the semi-crystalline polymer Polylactic Acid (PLA). The script is designed to normalize DSC data, plot the data, identify peak positions, and calculate enthalpy by numerical integration.

Contents

    dsc.py: Python script for analyzing DSC data.
    testfile.pdid.txt: Sample input file containing DSC data for testing.
    presentation.pdf: Presentation file explaining the analysis process and results.

Usage
Requirements

    Python 3.x
    Required Python libraries: numpy, matplotlib, and scipy

Install the required Python libraries:

Running the Script

    Ensure your DSC data file is in a compatible format (.txt).
    Type path to data file directly into the terminal when prompted.

Output

    The script will generate plots showing the normalized DSC data and identified peak positions.
    Enthalpy values will be calculated based on the integrated areas under the peaks.

Additional Notes

    Feel free to modify the script or incorporate it into your own projects and tune parameters for your own data.
    For detailed explanation and results, refer to the presentation.pdf file.

File: testfile.pdid.txt
Filename:	C:\Program Files\Pyris\Data\Elena S\DSC 10-30\pla_ori_1030.pdid.pdid
Operator ID:
Sample ID:	PLA
Comment: 	pla_ori_1031 run 2
Serial Number:	536N7042301
Data Collected:	10/31/2023 11:33:23 AM
Sample Weight:	19.900 mg
Display Weight:	19.900
Validation
Validated:	No
By:
Date:
Calibration Information
Filename:	C:\Program Files\Pyris\Calibrations\05-25-2023_DiamDSC_He-Cryo_1.pdic
Date/Time:
Initial Conditions
Temperature:	 0.00 °C
Y Initial:	20.00 mW
Sample Rate:	Fast
Baseline Filename:	C:\Program Files\Pyris\Data\Elena S\DSC 10-30\backgr2_1030.pdid.pdid
End Condition:	Go To Load
Total Points in Run:	3479
Method Steps:
Pre-Run Actions
Start the Run
	Action occurs Immediately
Switch the Gas to Helium at 20.0 ml/min
	Action occurs Immediately
1)	Hold for 1.0 min at 0.00°C

2)	Heat from 0.00°C to 220.00°C at 5.00°C/min

3)	Hold for 1.0 min at 220.00°C

4)	Cool from 220.00°C to 0.00°C at 20.00°C/min

5)	Hold for 1.0 min at 0.00°C

1) Diamond DSC Isothermal
	Time     	Unsubtracted	Baseline     	Program     	Sample     	Approx.     	Heat Flow
	          	Heat Flow     	Heat Flow     	Temperature	Temperature	Gas Flow     	Calibration
	0.000000	0.699589	0.000000	0.000000	36.363	0.000000	1.170320
	0.016667	0.796024	0.000000	0.000000	36.221	0.000000	1.170320
	0.033333	0.894916	0.000000	0.000000	36.089	0.000000	1.170320
	0.050000	0.993808	0.000000	0.000000	35.963	0.000000	1.170320
	0.066667	1.091647	0.000000	0.000000	35.841	0.000000	1.170320
	0.083333	1.187964	0.000000	0.000000	35.725	0.000000	1.170320
	0.100000	1.283111	0.000000	0.000000	35.611	0.000000	1.170320
	0.116667	1.374747	0.000000	0.000000	35.507	0.000000	1.170320
	0.133333	1.461702	0.000000	0.000000	35.405	0.000000	1.170320
	0.150000	1.544209	0.000000	0.000000	35.308	0.000000	1.170320
	0.166667	1.622855	0.000000	0.000000	35.215	0.000000	1.170320
	0.183333	1.696702	0.000000	0.000000	35.125	0.000000	1.170320
	0.200000	1.767506	0.000000	0.000000	35.042	0.000000	1.170320
	0.216667	1.833746	0.000000	0.000000	34.96	0.000000	1.170320
	0.233333	1.896007	0.000000	0.000000	34.881	0.000000	1.170320
	0.250000	1.954289	0.000000	0.000000	34.807	0.000000	1.170320
	0.266667	2.008592	0.000000	0.000000	34.735	0.000000	1.170320
	0.283333	2.060086	0.000000	0.000000	34.665	0.000000	1.170320
	0.300000	2.108537	0.000000	0.000000	34.602	0.000000	1.170320
	0.316667	2.153829	0.000000	0.000000	34.544	0.000000	1.170320
	0.333333	2.196545	0.000000	0.000000	34.479	0.000000	1.170320
	0.350000	2.237038	0.000000	0.000000	34.428	0.000000	1.170320
	0.366667	2.275425	0.000000	0.000000	34.373	0.000000	1.170320
	0.383333	2.311588	0.000000	0.000000	34.321	0.000000	1.170320
	0.400000	2.345527	0.000000	0.000000	34.272	0.000000	1.170320
	0.416667	2.378062	0.000000	0.000000	34.225	0.000000	1.170320
	0.433333	2.408841	0.000000	0.000000	34.177	0.000000	1.170320
	0.450000	2.437982	0.000000	0.000000	34.137	0.000000	1.170320
	0.466667	2.465719	0.000000	0.000000	34.095	0.000000	1.170320
	0.483333	2.492051	0.000000	0.000000	34.054	0.000000	1.170320
	0.500000	2.517096	0.000000	0.000000	34.017	0.000000	1.170320
	0.516667	2.540853	0.000000	0.000000	33.978	0.000000	1.170320
	0.533333	2.563557	0.000000	0.000000	33.944	0.000000	1.170320
	0.550000	2.585091	0.000000	0.000000	33.908	0.000000	1.170320
	0.566667	2.605572	0.000000	0.000000	33.877	0.000000	1.170320
	0.583333	2.625116	0.000000	0.000000	33.846	0.000000	1.170320
	0.600000	2.643607	0.000000	0.000000	33.815	0.000000	1.170320
	0.616667	2.661279	0.000000	0.000000	33.791	0.000000	1.170320
	0.633333	2.678249	0.000000	0.000000	33.763	0.000000	1.170320
	0.650000	2.694282	0.000000	0.000000	33.737	0.000000	1.170320
	0.666667	2.709496	0.000000	0.000000	33.712	0.000000	1.170320
	0.683333	2.724008	0.000000	0.000000	33.688	0.000000	1.170320
	0.700000	2.737935	0.000000	0.000000	33.666	0.000000	1.170320
	0.716667	2.751160	0.000000	0.000000	33.644	0.000000	1.170320
	0.733333	2.763799	0.000000	0.000000	33.625	0.000000	1.170320
	0.750000	2.775736	0.000000	0.000000	33.604	0.000000	1.170320
	0.766667	2.787323	0.000000	0.000000	33.583	0.000000	1.170320
	0.783333	2.798324	0.000000	0.000000	33.565	0.000000	1.170320
	0.800000	2.808739	0.000000	0.000000	33.552	0.000000	1.170320
	0.816667	2.818687	0.000000	0.000000	33.531	0.000000	1.170320
	0.833333	2.828284	0.000000	0.000000	33.516	0.000000	1.170320
	0.850000	2.837295	0.000000	0.000000	33.499	0.000000	1.170320
	0.866667	2.845839	0.000000	0.000000	33.485	0.000000	1.170320
	0.883333	2.854148	0.000000	0.000000	33.474	0.000000	1.170320
	0.900000	2.861989	0.000000	0.000000	33.454	0.000000	1.170320
	0.916667	2.869479	0.000000	0.000000	33.443	0.000000	1.170320
	0.933333	2.876735	0.000000	0.000000	33.431	0.000000	1.170320
	0.950000	2.883523	0.000000	0.000000	33.419	0.000000	1.170320
	0.966667	2.890194	0.000000	0.000000	33.408	0.000000	1.170320
	0.983333	2.896513	0.000000	0.000000	33.396	0.000000	1.170320
2) Diamond DSC Temperature Scan
	1.000000	2.891130	0.000000	0.004000	33.385	0.000000	1.170320
	1.266667	2.900141	-0.551572	1.337000	33.259	0.000000	1.170320
	1.533333	2.869011	0.764336	2.670000	33.186	0.000000	1.170320
	1.800000	2.821730	-0.600959	4.004000	33.139	0.000000	1.170320
	2.066667	2.766374	-1.062884	5.337000	33.106	0.000000	1.170320
	2.333333	2.707156	-1.306662	6.670000	33.072	0.000000	1.170320
	2.600000	3.999071	-1.311928	8.004000	33.095	0.000000	1.170320
	2.866667	3.587470	-0.982717	9.337000	33.231	0.000000	1.170320
	3.133333	3.484482	-0.645080	10.67	33.473	0.000000	1.170320
	3.400000	3.364290	-0.490832	12.004	33.787	0.000000	1.170320
	3.666667	3.203488	-0.444136	13.337	34.117	0.000000	1.170320
	3.933333	3.015067	-4.436447	14.67	34.373	0.000000	1.170320
	4.200000	2.869011	-4.383198	16.004	34.502	0.000000	1.170320
	4.466667	2.769534	-4.265581	17.337	34.556	0.000000	1.170320
	4.733333	2.958189	-4.132398	18.67	34.574	0.000000	1.170320
	5.000000	3.032504	-3.997343	20.004	35.679	0.000000	1.170320
	5.266667	2.644075	-3.859129	21.337	37.006	0.000000	1.170320
	5.533333	2.246518	-3.713307	22.67	38.343	0.000000	1.170320
	5.800000	1.845449	-3.577316	24.004	39.697	0.000000	1.170320
	6.066667	1.438178	-3.438282	25.337	41.057	0.000000	1.170320
	6.333333	1.029151	-3.299950	26.67	42.422	0.000000	1.170320
	6.600000	0.620944	-3.157990	28.004	43.792	0.000000	1.170320
	6.866667	0.218354	-3.024457	29.337	45.169	0.000000	1.170320
	7.133333	-0.167734	-2.885306	30.67	46.552	0.000000	1.170320
	7.400000	-0.507244	-2.747793	32.004	47.941	0.000000	1.170320
	7.666667	-0.694729	-2.611100	33.337	49.326	0.000000	1.170320
	7.933333	-0.305013	-2.481311	34.67	50.717	0.000000	1.170320
	8.200000	0.658511	-2.341107	36.004	52.114	0.000000	1.170320
	8.466667	-0.124667	-2.213542	37.337	53.508	0.000000	1.170320
	8.733333	-1.512783	-2.081998	38.67	54.905	0.000000	1.170320
	9.000000	-2.480403	-1.947646	40.004	56.306	0.000000	1.170320
	9.266667	-3.002599	-1.826167	41.337	57.705	0.000000	1.170320
	9.533333	-3.533456	-1.702347	42.67	59.109	0.000000	1.170320
	9.800000	-4.047461	-1.579931	44.004	60.51	0.000000	1.170320
	10.0667	-4.559827	-1.463133	45.337	61.915	0.000000	1.170320
	10.3333	-5.078863	-1.346570	46.67	63.322	0.000000	1.170320
	10.6	-5.611827	-1.224856	48.004	64.729	0.000000	1.170320
	10.8667	-6.146195	-1.117538	49.337	66.14	0.000000	1.170320
	11.1333	-6.687467	-1.011624	50.67	67.547	0.000000	1.170320
	11.4	-7.240326	-0.900444	52.004	68.955	0.000000	1.170320
	11.6667	-7.799973	-0.796754	53.337	70.362	0.000000	1.170320
	11.9333	-8.365472	-0.704766	54.67	71.771	0.000000	1.170320
	12.2	-8.949227	-0.599555	56.004	73.182	0.000000	1.170320
	12.4667	-9.546909	-0.506046	57.337	74.595	0.000000	1.170320
	12.7333	-10.1475	-0.416400	58.67	76.013	0.000000	1.170320
	13	-10.7635	-0.322891	60.004	77.422	0.000000	1.170320
	13.2667	-11.3965	-0.240150	61.337	78.836	0.000000	1.170320
	13.5333	-12.0452	-0.156355	62.67	80.245	0.000000	1.170320
	13.8	-12.712	-0.078060	64.004	81.66	0.000000	1.170320
	14.0667	-13.403	-0.002926	65.337	83.073	0.000000	1.170320
	14.3333	-14.1325	0.101935	66.67	84.487	0.000000	1.170320
	14.6	-14.8665	0.147811	68.004	85.896	0.000000	1.170320
	14.8667	-15.6314	0.210775	69.337	87.314	0.000000	1.170320
	15.1333	-16.4242	0.279355	70.67	88.724	0.000000	1.170320
	15.4	-17.2555	0.337754	72.004	90.14	0.000000	1.170320
	15.6667	-18.1382	0.394281	73.337	91.555	0.000000	1.170320
	15.9333	-19.0751	0.453850	74.67	92.973	0.000000	1.170320
	16.2	-20.0499	0.508270	76.004	94.388	0.000000	1.170320
	16.4667	-21.046	0.554497	77.337	95.8	0.000000	1.170320
	16.7333	-22.0402	0.603183	78.67	97.221	0.000000	1.170320
	17	-23.0069	0.646367	80.004	98.636	0.000000	1.170320
	17.2667	-23.9135	0.689084	81.337	100.051	0.000000	1.170320
	17.5333	-24.7271	0.726183	82.67	101.469	0.000000	1.170320
	17.8	-25.408	0.754973	84.004	102.883	0.000000	1.170320
	18.0667	-25.9351	0.789732	85.337	104.303	0.000000	1.170320
	18.3333	-26.3374	0.815362	86.67	105.72	0.000000	1.170320
	18.6	-26.7577	0.835140	88.004	107.132	0.000000	1.170320
	18.8667	-27.2729	0.858195	89.337	108.552	0.000000	1.170320
	19.1333	-27.8615	0.879261	90.67	109.969	0.000000	1.170320
	19.4	-28.4953	0.886166	92.004	111.39	0.000000	1.170320
	19.6667	-29.1563	0.896114	93.337	112.807	0.000000	1.170320
	19.9333	-29.8207	0.904657	94.67	114.227	0.000000	1.170320
	20.2	-30.4759	0.907115	96.004	115.647	0.000000	1.170320
	20.4667	-31.123	0.902433	97.337	117.061	0.000000	1.170320
	20.7333	-31.7687	0.906178	98.67	118.484	0.000000	1.170320
	21	-32.4047	0.893656	100.004	119.9	0.000000	1.170320
	21.2667	-33.0393	0.889560	101.337	121.321	0.000000	1.170320
	21.5333	-33.6555	0.881251	102.67	122.738	0.000000	1.170320
	21.8	-34.2398	0.861472	104.004	124.154	0.000000	1.170320
	22.0667	-34.8023	0.839587	105.337	125.574	0.000000	1.170320
	22.3333	-35.3632	0.818990	106.67	126.992	0.000000	1.170320
	22.6	-35.9267	0.790668	108.004	128.413	0.000000	1.170320
	22.8667	-36.5163	0.756612	109.337	129.832	0.000000	1.170320
	23.1333	-37.1234	0.719512	110.67	131.253	0.000000	1.170320
	23.4	-37.7514	0.659592	112.004	132.67	0.000000	1.170320
	23.6667	-38.4114	0.608332	113.337	134.088	0.000000	1.170320
	23.9333	-39.1002	0.554848	114.67	135.504	0.000000	1.170320
	24.2	-39.8125	0.490364	116.004	136.923	0.000000	1.170320
	24.4667	-40.5417	0.414761	117.337	138.345	0.000000	1.170320
	24.7333	-41.2873	0.338222	118.67	139.767	0.000000	1.170320
	25	-42.0256	0.251970	120.004	141.185	0.000000	1.170320
	25.2667	-42.7888	0.153312	121.337	142.606	0.000000	1.170320
	25.5333	-43.5447	0.055707	122.67	144.025	0.000000	1.170320
	25.8	-44.3172	-0.064602	124.004	145.445	0.000000	1.170320
	26.0667	-45.0862	-0.188656	125.337	146.867	0.000000	1.170320
	26.3333	-45.8465	-0.308262	126.67	148.287	0.000000	1.170320
	26.6	-46.61	-0.452211	128.004	149.706	0.000000	1.170320
	26.8667	-47.4513	-0.585745	129.337	151.126	0.000000	1.170320
	27.1333	-48.257	-0.718459	130.67	152.541	0.000000	1.170320
	27.4	-48.9261	-0.872941	132.004	153.961	0.000000	1.170320
	27.6667	-49.4694	-1.022391	133.337	155.379	0.000000	1.170320
	27.9333	-49.8393	-1.174533	134.67	156.799	0.000000	1.170320
	28.2	-49.7988	-1.335452	136.004	158.219	0.000000	1.170320
	28.4667	-48.7765	-1.498126	137.337	159.637	0.000000	1.170320
	28.7333	-47.6395	-1.649214	138.67	161.058	0.000000	1.170320
	29	-46.9792	-1.818794	140.004	162.475	0.000000	1.170320
	29.2667	-46.1366	-1.988958	141.337	163.894	0.000000	1.170320
	29.5333	-44.6932	-2.156080	142.67	165.313	0.000000	1.170320
	29.8	-45.0041	-2.321329	144.004	166.732	0.000000	1.170320
	30.0667	-49.8988	-2.495589	145.337	168.156	0.000000	1.170320
	30.3333	-59.5563	-2.666573	146.67	169.575	0.000000	1.170320
	30.6	-61.375	-2.843759	148.004	170.996	0.000000	1.170320
	30.8667	-62.3865	-3.031479	149.337	172.413	0.000000	1.170320
	31.1333	-63.4119	-3.212527	150.67	173.834	0.000000	1.170320
	31.4	-64.4587	-3.401651	152.004	175.252	0.000000	1.170320
	31.6667	-65.5437	-3.593817	153.337	176.675	0.000000	1.170320
	31.9333	-66.6351	-3.782707	154.67	178.094	0.000000	1.170320
	32.2	-67.7303	-3.977682	156.004	179.512	0.000000	1.170320
	32.4667	-68.8403	-4.178275	157.337	180.929	0.000000	1.170320
	32.7333	-69.9654	-4.375708	158.67	182.347	0.000000	1.170320
	33	-71.0961	-4.574428	160.004	183.766	0.000000	1.170320
	33.2667	-72.2341	-4.775957	161.337	185.192	0.000000	1.170320
	33.5333	-73.3649	-4.983338	162.67	186.61	0.000000	1.170320
	33.8	-74.5154	-5.192357	164.004	188.032	0.000000	1.170320
	34.0667	-75.6727	-5.403716	165.337	189.45	0.000000	1.170320
	34.3333	-76.8448	-5.621162	166.67	190.871	0.000000	1.170320
	34.6	-78.0218	-5.839543	168.004	192.287	0.000000	1.170320
	34.8667	-79.2156	-6.057574	169.337	193.713	0.000000	1.170320
	35.1333	-80.4119	-6.292106	170.67	195.129	0.000000	1.170320
	35.4	-81.625	-6.524414	172.004	196.554	0.000000	1.170320
	35.6667	-82.8409	-6.758010	173.337	197.971	0.000000	1.170320
	35.9333	-84.0751	-7.002958	174.67	199.397	0.000000	1.170320
	36.2	-85.3115	-7.247906	176.004	200.816	0.000000	1.170320
	36.4667	-86.5592	-7.494609	177.337	202.234	0.000000	1.170320
	36.7333	-87.8165	-7.759570	178.67	203.656	0.000000	1.170320
	37	-89.0958	-8.033307	180.004	205.075	0.000000	1.170320
	37.2667	-90.3884	-8.318280	181.337	206.497	0.000000	1.170320
	37.5333	-91.6949	-8.661652	182.67	207.915	0.000000	1.170320
	37.8	-93.0379	-9.013684	184.004	209.338	0.000000	1.170320
	38.0667	-94.4087	-9.354481	185.337	210.756	0.000000	1.170320
	38.3333	-95.7853	-9.693757	186.67	212.174	0.000000	1.170320
	38.6	-97.1848	-10.0247	188.004	213.6	0.000000	1.170320
	38.8667	-98.5894	-10.3489	189.337	215.023	0.000000	1.170320
	39.1333	-100.015	-10.7037	190.67	216.443	0.000000	1.170320
	39.4	-101.446	-11.0574	192.004	217.862	0.000000	1.170320
	39.6667	-102.89	-11.3886	193.337	219.279	0.000000	1.170320
	39.9333	-104.311	-11.7457	194.67	220.693	0.000000	1.170320
	40.2	-105.788	-12.0963	196.004	222.116	0.000000	1.170320
	40.4667	-107.258	-12.4346	197.337	223.539	0.000000	1.170320
	40.7333	-108.735	-12.7804	198.67	224.959	0.000000	1.170320
	41	-110.223	-13.1243	200.004	226.38	0.000000	1.170320
	41.2667	-111.727	-13.4569	201.337	227.801	0.000000	1.170320
	41.5333	-113.231	-13.8015	202.67	229.217	0.000000	1.170320
	41.8	-114.72	-14.1571	204.004	230.638	0.000000	1.170320
	42.0667	-116.266	-14.4903	205.337	232.057	0.000000	1.170320
	42.3333	-117.786	-14.8188	206.67	233.482	0.000000	1.170320
	42.6	-119.326	-15.1496	208.004	234.905	0.000000	1.170320
	42.8667	-120.864	-15.4632	209.337	236.322	0.000000	1.170320
	43.1333	-122.408	-15.7842	210.67	237.745	0.000000	1.170320
	43.4	-123.969	-16.0979	212.004	239.163	0.000000	1.170320
	43.6667	-125.519	-16.4117	213.337	240.579	0.000000	1.170320
	43.9333	-127.067	-16.7373	214.67	242.006	0.000000	1.170320
	44.2	-128.644	-17.0654	216.004	243.427	0.000000	1.170320
	44.4667	-130.224	-17.4147	217.337	244.851	0.000000	1.170320
	44.7333	-131.809	-17.7699	218.67	246.267	0.000000	1.170320
	44.9833	-133.302	-18.1089	219.92	247.602	0.000000	1.170320
3) Diamond DSC Isothermal
	45	-133.289	-18.1089	220	247.69	0.000000	1.170320
	45.0167	-125.985	-18.1089	220	247.648	0.000000	1.170320
	45.0333	-127.155	-18.1089	220	247.163	0.000000	1.170320
	45.05	-133.362	-18.1089	220	246.673	0.000000	1.170320
	45.0667	-138.74	-18.1089	220	246.285	0.000000	1.170320
	45.0833	-141.313	-18.1089	220	245.981	0.000000	1.170320
	45.1	-141.628	-18.1089	220	245.746	0.000000	1.170320
	45.1167	-140.766	-18.1089	220	245.57	0.000000	1.170320
	45.1333	-139.478	-18.1089	220	245.43	0.000000	1.170320
	45.15	-138.174	-18.1089	220	245.325	0.000000	1.170320
	45.1667	-137.016	-18.1089	220	245.241	0.000000	1.170320
	45.1833	-136.056	-18.1089	220	245.177	0.000000	1.170320
	45.2	-135.29	-18.1089	220	245.127	0.000000	1.170320
	45.2167	-134.678	-18.1089	220	245.093	0.000000	1.170320
	45.2333	-134.208	-18.1089	220	245.065	0.000000	1.170320
	45.25	-133.844	-18.1089	220	245.041	0.000000	1.170320
	45.2667	-133.565	-18.1089	220	245.026	0.000000	1.170320
	45.2833	-133.357	-18.1089	220	245.011	0.000000	1.170320
	45.3	-133.189	-18.1089	220	245.001	0.000000	1.170320
	45.3167	-133.071	-18.1089	220	244.993	0.000000	1.170320
	45.3333	-132.979	-18.1089	220	244.989	0.000000	1.170320
	45.35	-132.911	-18.1089	220	244.984	0.000000	1.170320
	45.3667	-132.857	-18.1089	220	244.981	0.000000	1.170320
	45.3833	-132.819	-18.1089	220	244.977	0.000000	1.170320
	45.4	-132.794	-18.1089	220	244.974	0.000000	1.170320
	45.4167	-132.774	-18.1089	220	244.971	0.000000	1.170320
	45.4333	-132.762	-18.1089	220	244.972	0.000000	1.170320
	45.45	-132.754	-18.1089	220	244.968	0.000000	1.170320
	45.4667	-132.75	-18.1089	220	244.971	0.000000	1.170320
	45.4833	-132.751	-18.1089	220	244.97	0.000000	1.170320
	45.5	-132.754	-18.1089	220	244.973	0.000000	1.170320
	45.5167	-132.758	-18.1089	220	244.97	0.000000	1.170320
	45.5333	-132.763	-18.1089	220	244.966	0.000000	1.170320
	45.55	-132.768	-18.1089	220	244.966	0.000000	1.170320
	45.5667	-132.774	-18.1089	220	244.969	0.000000	1.170320
	45.5833	-132.78	-18.1089	220	244.969	0.000000	1.170320
	45.6	-132.786	-18.1089	220	244.969	0.000000	1.170320
	45.6167	-132.793	-18.1089	220	244.967	0.000000	1.170320
	45.6333	-132.801	-18.1089	220	244.968	0.000000	1.170320
	45.65	-132.808	-18.1089	220	244.969	0.000000	1.170320
	45.6667	-132.816	-18.1089	220	244.97	0.000000	1.170320
	45.6833	-132.825	-18.1089	220	244.969	0.000000	1.170320
	45.7	-132.833	-18.1089	220	244.971	0.000000	1.170320
	45.7167	-132.841	-18.1089	220	244.97	0.000000	1.170320
[...]
	53	-26.623	18.539	79.995	96.636	0.000000	1.170320
	53.0667	-25.9694	18.4779	78.662	95.226	0.000000	1.170320
	53.1333	-25.3104	18.3847	77.329	93.815	0.000000	1.170320
	53.2	-24.6541	18.2996	75.995	92.411	0.000000	1.170320
	53.2667	-24.0123	18.2336	74.662	90.998	0.000000	1.170320
	53.3333	-23.3752	18.1381	73.329	89.588	0.000000	1.170320
	53.4	-22.7341	18.0442	71.995	88.184	0.000000	1.170320
	53.4667	-22.1061	17.9628	70.662	86.775	0.000000	1.170320
	53.5333	-21.4766	17.845	69.329	85.365	0.000000	1.170320
	53.6	-20.8382	17.7188	67.995	83.965	0.000000	1.170320
	53.6667	-20.2378	17.6529	66.662	82.559	0.000000	1.170320
	53.7333	-19.6331	17.5446	65.329	81.156	0.000000	1.170320
	53.8	-19.0237	17.4319	63.995	79.75	0.000000	1.170320
	53.8667	-18.4335	17.3274	62.662	78.347	0.000000	1.170320
	53.9333	-17.8385	17.1989	61.329	76.948	0.000000	1.170320
	54	-17.2441	17.0732	59.995	75.539	0.000000	1.170320
	54.0667	-16.6703	16.9525	58.662	74.136	0.000000	1.170320
	54.1333	-16.0865	16.815	57.329	72.735	0.000000	1.170320
	54.2	-15.5171	16.679	55.995	71.336	0.000000	1.170320
	54.2667	-14.9566	16.5363	54.662	69.938	0.000000	1.170320
	54.3333	-14.3909	16.3804	53.329	68.547	0.000000	1.170320
	54.4	-13.83	16.2281	51.995	67.155	0.000000	1.170320
	54.4667	-13.277	16.0784	50.662	65.764	0.000000	1.170320
	54.5333	-12.7159	15.9051	49.329	64.367	0.000000	1.170320
	54.6	-12.1581	15.7385	47.995	62.974	0.000000	1.170320
	54.6667	-11.6039	15.5718	46.662	61.59	0.000000	1.170320
	54.7333	-11.038	15.3817	45.329	60.211	0.000000	1.170320
	54.8	-10.449	15.1807	43.995	58.834	0.000000	1.170320
	54.8667	-9.826967	14.981	42.662	57.46	0.000000	1.170320
	54.9333	-9.124307	14.7518	41.329	56.086	0.000000	1.170320
	55	-8.325447	14.5209	39.995	54.722	0.000000	1.170320
	55.0667	-7.428748	14.2852	38.662	53.361	0.000000	1.170320
	55.1333	-6.466979	14.0066	37.329	52.005	0.000000	1.170320
	55.2	-5.500646	13.7042	35.995	50.665	0.000000	1.170320
	55.2667	-4.574339	13.3647	34.662	49.336	0.000000	1.170320
	55.3333	-3.707015	12.9647	33.329	48.022	0.000000	1.170320
	55.4	-2.968075	12.4831	31.995	46.734	0.000000	1.170320
	55.4667	-2.444708	11.8765	30.662	45.576	0.000000	1.170320
	55.5333	-1.555850	11.0366	29.329	44.609	0.000000	1.170320
	55.6	-0.781801	9.758710	27.995	43.803	0.000000	1.170320
	55.6667	-0.150765	10.2679	26.662	43.127	0.000000	1.170320
	55.7333	0.364995	7.819841	25.329	42.563	0.000000	1.170320
	55.8	0.793449	5.531398	23.995	42.092	0.000000	1.170320
	55.8667	1.132842	3.641917	22.662	41.69	0.000000	1.170320
	55.9333	1.352862	2.087382	21.329	41.322	0.000000	1.170320
	56	1.463691	0.803775	19.995	40.956	0.000000	1.170320
	56.0667	1.508397	-0.313295	18.662	40.581	0.000000	1.170320
	56.1333	1.472820	-1.155925	17.329	40.214	0.000000	1.170320
	56.2	1.248820	-1.536630	15.995	39.863	0.000000	1.170320
	56.2667	0.360548	-1.887725	14.662	39.54	0.000000	1.170320
	56.3333	1.115872	-2.564638	13.329	39.264	0.000000	1.170320
	56.4	1.644271	-3.928061	11.995	39.036	0.000000	1.170320
	56.4667	1.980036	-4.753487	10.662	38.841	0.000000	1.170320
	56.5333	2.207780	-3.499724	9.329000	38.685	0.000000	1.170320
	56.6	2.381339	-3.654089	7.995000	38.546	0.000000	1.170320
	56.6667	2.525639	-3.987747	6.662000	38.432	0.000000	1.170320
	56.7333	2.652385	-4.291328	5.329000	38.334	0.000000	1.170320
	56.8	2.766608	-4.540840	3.995000	38.252	0.000000	1.170320
	56.8667	2.871586	-4.740028	2.662000	38.188	0.000000	1.170320
	56.9333	2.968839	-4.896500	1.329000	38.124	0.000000	1.170320
	56.9833	3.038239	-4.992115	0.329000	38.085	0.000000	1.170320
5) Diamond DSC Isothermal
	57	2.913132	-4.992115	0.000000	38.071	0.000000	1.170320
	57.0167	2.929399	-4.992115	0.000000	38.063	0.000000	1.170320
	57.0333	2.942273	-4.992115	0.000000	38.049	0.000000	1.170320
	57.05	2.952689	-4.992115	0.000000	38.038	0.000000	1.170320
	57.0667	2.960179	-4.992115	0.000000	38.027	0.000000	1.170320
	57.0833	2.965679	-4.992115	0.000000	38.02	0.000000	1.170320
	57.1	2.970361	-4.992115	0.000000	38.008	0.000000	1.170320
	57.1167	2.974340	-4.992115	0.000000	37.999	0.000000	1.170320
	57.1333	2.977851	-4.992115	0.000000	37.991	0.000000	1.170320
	57.15	2.980776	-4.992115	0.000000	37.981	0.000000	1.170320
	57.1667	2.983585	-4.992115	0.000000	37.972	0.000000	1.170320
	57.1833	2.986511	-4.992115	0.000000	37.964	0.000000	1.170320
	57.2	2.989320	-4.992115	0.000000	37.956	0.000000	1.170320
	57.2167	2.991894	-4.992115	0.000000	37.947	0.000000	1.170320
	57.2333	2.994820	-4.992115	0.000000	37.942	0.000000	1.170320
	57.25	2.997746	-4.992115	0.000000	37.934	0.000000	1.170320
	57.2667	3.000438	-4.992115	0.000000	37.932	0.000000	1.170320
	57.2833	3.003129	-4.992115	0.000000	37.922	0.000000	1.170320
	57.3	3.005704	-4.992115	0.000000	37.916	0.000000	1.170320
	57.3167	3.008279	-4.992115	0.000000	37.91	0.000000	1.170320
	57.3333	3.010737	-4.992115	0.000000	37.902	0.000000	1.170320
	57.35	3.013311	-4.992115	0.000000	37.895	0.000000	1.170320
	57.3667	3.015769	-4.992115	0.000000	37.889	0.000000	1.170320
	57.3833	3.018110	-4.992115	0.000000	37.882	0.000000	1.170320
	57.4	3.020450	-4.992115	0.000000	37.876	0.000000	1.170320
	57.4167	3.022557	-4.992115	0.000000	37.872	0.000000	1.170320
	57.4333	3.024663	-4.992115	0.000000	37.868	0.000000	1.170320
	57.45	3.026887	-4.992115	0.000000	37.861	0.000000	1.170320
	57.4667	3.028876	-4.992115	0.000000	37.857	0.000000	1.170320
	57.4833	3.030749	-4.992115	0.000000	37.855	0.000000	1.170320
	57.5	3.032739	-4.992115	0.000000	37.85	0.000000	1.170320
	57.5167	3.034494	-4.992115	0.000000	37.848	0.000000	1.170320
	57.5333	3.036249	-4.992115	0.000000	37.845	0.000000	1.170320
	57.55	3.037888	-4.992115	0.000000	37.836	0.000000	1.170320
	57.5667	3.039526	-4.992115	0.000000	37.83	0.000000	1.170320
	57.5833	3.040931	-4.992115	0.000000	37.829	0.000000	1.170320
	57.6	3.042452	-4.992115	0.000000	37.823	0.000000	1.170320
	57.6167	3.043857	-4.992115	0.000000	37.819	0.000000	1.170320
	57.6333	3.045261	-4.992115	0.000000	37.815	0.000000	1.170320
	57.65	3.046548	-4.992115	0.000000	37.813	0.000000	1.170320
	57.6667	3.047836	-4.992115	0.000000	37.805	0.000000	1.170320
	57.6833	3.049006	-4.992115	0.000000	37.805	0.000000	1.170320
	57.7	3.050176	-4.992115	0.000000	37.801	0.000000	1.170320
	57.7167	3.051347	-4.992115	0.000000	37.797	0.000000	1.170320
	57.7333	3.052517	-4.992115	0.000000	37.793	0.000000	1.170320
	57.75	3.053336	-4.992115	0.000000	37.789	0.000000	1.170320
	57.7667	3.054389	-4.992115	0.000000	37.786	0.000000	1.170320
	57.7833	3.055209	-4.992115	0.000000	37.784	0.000000	1.170320
	57.8	3.056145	-4.992115	0.000000	37.78	0.000000	1.170320
	57.8167	3.056964	-4.992115	0.000000	37.777	0.000000	1.170320
	57.8333	3.057783	-4.992115	0.000000	37.775	0.000000	1.170320
	57.85	3.058603	-4.992115	0.000000	37.773	0.000000	1.170320
	57.8667	3.059305	-4.992115	0.000000	37.771	0.000000	1.170320
	57.8833	3.060124	-4.992115	0.000000	37.763	0.000000	1.170320
	57.9	3.060826	-4.992115	0.000000	37.764	0.000000	1.170320
	57.9167	3.061528	-4.992115	0.000000	37.757	0.000000	1.170320
	57.9333	3.062231	-4.992115	0.000000	37.751	0.000000	1.170320
	57.95	3.062933	-4.992115	0.000000	37.753	0.000000	1.170320
	57.9667	3.063635	-4.992115	0.000000	37.75	0.000000	1.170320

	DIAMOND DSC AUTOTUNE CALIBRATION VALUES:
Date:	2/2/2018 9:20:14 AM
Slope: 47
Coarse Balance: 0
Fine Balance: 50
Starting Temperature: -150.0 °C
Ending Temperature: 200.0 °C
Scan Rate: 20.0 °C/min

	DIAMOND DSC SAMPLE TEMPERATURE CALIBRATION VALUES:
Reference	Expected (°C)	Measured (°C)	Method
Indium          	   156.600	   156.860

NEWPAGE

	DIAMOND DSC FURNACE TEMPERATURE CALIBRATION VALUES:
Minimum	-170.000 °C
Maximum	 270.000 °C

	FURNACE CALIBRATION COMPUTED RESULTS:
Date:	2/6/2023 11:07:55 AM
Setpoints (°C)	Boundaries (°C)	y''
-170.000		-172.314	0
-115.000		-124.043	-0.0012001
 -60.000		 -73.970	-0.00019932
  -5.000		 -22.998	-0.00031121
  50.000		  28.607	-0.00010478
 105.000		  80.429	0.00021143
 160.000		 131.897	0.00010788
 215.000		 183.051	0.00012381
 270.000		 233.962	0

	DIAMOND DSC HEAT FLOW CALIBRATION VALUES:
Reference	Temperature (°C)	Expected (W/g)	Measured (W/g)
Indium          	 160.600	  28.450	   24.310
DIAMOND HEAT FLOW CALIBRATION COMPUTED RESULTS:
Date:	1/27/2023 9:11:36 AM
K(Ts) = (0)Ts^3 + (0)Ts^2 + (0)Ts + (1.1703)

	PROFILE VALUES FOR THIS DATA:

Software Version	8.0.0.0172
Firmware Version	Part Number N5368010  Revision 0.01:.
Instrument Serial Number	536N7042301
Load Temperature	25.0 °C
Go To Temp Rate	200.0 °C/min
Maximum Allowed Temperature	300.0 °C
Helium Purge	Was Used
Liquid Nitrogen	Was Used
Data taken using the	Normal Range
Filter Factor	3
Lag Compensation	0
Cooling Device	CryoFill
Filter Algorithm: Adaptive Boxcar